STUDYID,USUBJID,RSSEQ,RSTESTCD,RSTEST,RSCAT,RSORRES,RSSTRESC,RSDY,RSDTC,RSEVAL,VISIT,ABLFL,NTRGRESP
CX-301,001-001,1,LDIAM,Longest Diameter,TARGET,25,25,1,2024-01-01,INVESTIGATOR,BASELINE,Y,
CX-301,001-001,2,LDIAM,Longest Diameter,TARGET,30,30,1,2024-01-01,INVESTIGATOR,BASELINE,Y,
CX-301,001-001,3,LDIAM,Longest Diameter,TARGET,15,15,57,2024-02-27,INVESTIGATOR,WEEK 8,,
CX-301,001-001,4,LDIAM,Longest Diameter,TARGET,18,18,57,2024-02-27,INVESTIGATOR,WEEK 8,,
CX-301,001-001,5,LDIAM,Longest Diameter,TARGET,10,10,113,2024-04-23,INVESTIGATOR,WEEK 16,,
CX-301,001-001,6,LDIAM,Longest Diameter,TARGET,12,12,113,2024-04-23,INVESTIGATOR,WEEK 16,,
CX-301,001-002,1,LDIAM,Longest Diameter,TARGET,40,40,1,2024-01-05,INVESTIGATOR,BASELINE,Y,
CX-301,001-002,2,LDIAM,Longest Diameter,TARGET,35,35,1,2024-01-05,INVESTIGATOR,BASELINE,Y,
CX-301,001-002,3,LDIAM,Longest Diameter,TARGET,0,0,56,2024-03-01,INVESTIGATOR,WEEK 8,,
CX-301,001-002,4,LDIAM,Longest Diameter,TARGET,0,0,56,2024-03-01,INVESTIGATOR,WEEK 8,,
CX-301,001-002,5,LDIAM,Longest Diameter,TARGET,0,0,112,2024-04-26,INVESTIGATOR,WEEK 16,,
CX-301,001-002,6,LDIAM,Longest Diameter,TARGET,0,0,112,2024-04-26,INVESTIGATOR,WEEK 16,,
CX-301,001-003,1,LDIAM,Longest Diameter,TARGET,50,50,1,2024-01-10,INVESTIGATOR,BASELINE,Y,
CX-301,001-003,2,LDIAM,Longest Diameter,TARGET,45,45,1,2024-01-10,INVESTIGATOR,BASELINE,Y,
CX-301,001-003,3,LDIAM,Longest Diameter,TARGET,66,66,57,2024-03-07,INVESTIGATOR,WEEK 8,,
CX-301,001-003,4,LDIAM,Longest Diameter,TARGET,60,60,57,2024-03-07,INVESTIGATOR,WEEK 8,,
CX-301,001-004,1,LDIAM,Longest Diameter,TARGET,50,50,1,2024-01-15,INVESTIGATOR,BASELINE,Y,
CX-301,001-004,2,LDIAM,Longest Diameter,TARGET,50,50,1,2024-01-15,INVESTIGATOR,BASELINE,Y,
CX-301,001-004,3,LDIAM,Longest Diameter,TARGET,35,35,57,2024-03-12,INVESTIGATOR,WEEK 8,,
CX-301,001-004,4,LDIAM,Longest Diameter,TARGET,35,35,57,2024-03-12,INVESTIGATOR,WEEK 8,,
CX-301,001-004,5,LDIAM,Longest Diameter,TARGET,35,35,113,2024-05-07,INVESTIGATOR,WEEK 16,,
CX-301,001-004,6,LDIAM,Longest Diameter,TARGET,35,35,113,2024-05-07,INVESTIGATOR,WEEK 16,,
CX-301,001-005,1,LDIAM,Longest Diameter,TARGET,20,20,1,2024-01-20,INVESTIGATOR,BASELINE,Y,
CX-301,001-005,2,LDIAM,Longest Diameter,TARGET,24,24,57,2024-03-17,INVESTIGATOR,WEEK 8,,
CX-301,001-006,1,LDIAM,Longest Diameter,TARGET,20,20,1,2024-01-25,INVESTIGATOR,BASELINE,Y,
CX-301,001-006,2,LDIAM,Longest Diameter,TARGET,24,24,57,2024-03-22,INVESTIGATOR,WEEK 8,,
CX-301,001-006,3,LDIAM,Longest Diameter,TARGET,25,25,113,2024-05-17,INVESTIGATOR,WEEK 16,,
CX-301,001-007,1,LDIAM,Longest Diameter,TARGET,40,40,1,2024-02-01,INVESTIGATOR,BASELINE,Y,
CX-301,001-007,2,LDIAM,Longest Diameter,TARGET,40,40,1,2024-02-01,INVESTIGATOR,BASELINE,Y,
CX-301,001-007,3,LDIAM,Longest Diameter,TARGET,42,42,57,2024-03-29,INVESTIGATOR,WEEK 8,,
CX-301,001-007,4,LDIAM,Longest Diameter,TARGET,38,38,57,2024-03-29,INVESTIGATOR,WEEK 8,,
CX-301,001-007,5,LDIAM,Longest Diameter,TARGET,41,41,113,2024-05-24,INVESTIGATOR,WEEK 16,,
CX-301,001-007,6,LDIAM,Longest Diameter,TARGET,39,39,113,2024-05-24,INVESTIGATOR,WEEK 16,,
CX-301,001-008,1,LDIAM,Longest Diameter,TARGET,30,30,1,2024-02-05,INVESTIGATOR,BASELINE,Y,
CX-301,001-008,2,LDIAM,Longest Diameter,TARGET,30,30,1,2024-02-05,INVESTIGATOR,BASELINE,Y,
CX-301,001-008,3,LDIAM,Longest Diameter,TARGET,32,32,20,2024-02-25,INVESTIGATOR,WEEK 3,,
CX-301,001-008,4,LDIAM,Longest Diameter,TARGET,28,28,20,2024-02-25,INVESTIGATOR,WEEK 3,,
CX-301,001-011,1,LDIAM,Longest Diameter,TARGET,50,50,1,2024-02-10,INVESTIGATOR,BASELINE,Y,
CX-301,001-011,2,LDIAM,Longest Diameter,TARGET,30,30,1,2024-02-10,INVESTIGATOR,BASELINE,Y,
CX-301,001-011,3,LDIAM,Longest Diameter,TARGET,28,28,29,2024-03-10,INVESTIGATOR,DAY 29,,
CX-301,001-011,4,LDIAM,Longest Diameter,TARGET,28,28,29,2024-03-10,INVESTIGATOR,DAY 29,,
CX-301,001-012,1,LDIAM,Longest Diameter,TARGET,60,60,1,2024-02-15,INVESTIGATOR,BASELINE,Y,
CX-301,001-012,2,LDIAM,Longest Diameter,TARGET,40,40,1,2024-02-15,INVESTIGATOR,BASELINE,Y,
CX-301,001-012,3,LDIAM,Longest Diameter,TARGET,35,35,85,2024-05-10,INVESTIGATOR,DAY 85,,
CX-301,001-012,4,LDIAM,Longest Diameter,TARGET,35,35,85,2024-05-10,INVESTIGATOR,DAY 85,,
CX-301,001-013,1,LDIAM,Longest Diameter,TARGET,50,50,1,2024-02-20,INVESTIGATOR,BASELINE,Y,
CX-301,001-013,2,LDIAM,Longest Diameter,TARGET,50,50,1,2024-02-20,INVESTIGATOR,BASELINE,Y,
CX-301,001-013,3,LDIAM,Longest Diameter,TARGET,35,35,27,2024-03-18,INVESTIGATOR,DAY 27,,
CX-301,001-013,4,LDIAM,Longest Diameter,TARGET,35,35,27,2024-03-18,INVESTIGATOR,DAY 27,,
CX-301,001-014,1,LDIAM,Longest Diameter,TARGET,80,80,1,2024-02-25,INVESTIGATOR,BASELINE,Y,
CX-301,001-014,2,LDIAM,Longest Diameter,TARGET,40,40,1,2024-02-25,INVESTIGATOR,BASELINE,Y,
CX-301,001-014,3,LDIAM,Longest Diameter,TARGET,42,42,86,2024-05-21,INVESTIGATOR,DAY 86,,
CX-301,001-014,4,LDIAM,Longest Diameter,TARGET,42,42,86,2024-05-21,INVESTIGATOR,DAY 86,,
CX-301,001-015,1,LDIAM,Longest Diameter,TARGET,60,60,1,2024-03-01,INVESTIGATOR,BASELINE,Y,
CX-301,001-015,2,LDIAM,Longest Diameter,TARGET,40,40,1,2024-03-01,INVESTIGATOR,BASELINE,Y,
CX-301,001-015,3,LDIAM,Longest Diameter,TARGET,35,35,57,2024-04-27,INVESTIGATOR,WEEK 8,,
CX-301,001-015,4,LDIAM,Longest Diameter,TARGET,35,35,57,2024-04-27,INVESTIGATOR,WEEK 8,,
CX-301,001-015,5,LDIAM,Longest Diameter,TARGET,75,75,70,2024-05-10,INVESTIGATOR,DAY 70,,
CX-301,001-015,6,LDIAM,Longest Diameter,TARGET,45,45,70,2024-05-10,INVESTIGATOR,DAY 70,,
CX-301,001-016,1,LDIAM,Longest Diameter,TARGET,40,40,1,2024-03-05,INVESTIGATOR,BASELINE,Y,
CX-301,001-016,2,LDIAM,Longest Diameter,TARGET,30,30,1,2024-03-05,INVESTIGATOR,BASELINE,Y,
CX-301,001-016,3,LDIAM,Longest Diameter,TARGET,21,21,57,2024-05-01,INVESTIGATOR,WEEK 8,,
CX-301,001-016,4,LDIAM,Longest Diameter,TARGET,21,21,57,2024-05-01,INVESTIGATOR,WEEK 8,,
CX-301,001-016,100,NTRGRESP,Non-Target Response,NON-TARGET,,,,1,2024-03-05,INVESTIGATOR,BASELINE,Y,PRESENT
CX-301,001-016,101,NTRGRESP,Non-Target Response,NON-TARGET,,,,57,2024-05-01,INVESTIGATOR,WEEK 8,,ABSENT
CX-301,001-017,1,LDIAM,Longest Diameter,TARGET,50,50,1,2024-03-10,INVESTIGATOR,BASELINE,Y,
CX-301,001-017,2,LDIAM,Longest Diameter,TARGET,30,30,1,2024-03-10,INVESTIGATOR,BASELINE,Y,
CX-301,001-017,3,LDIAM,Longest Diameter,TARGET,28,28,57,2024-05-06,INVESTIGATOR,WEEK 8,,
CX-301,001-017,4,LDIAM,Longest Diameter,TARGET,28,28,57,2024-05-06,INVESTIGATOR,WEEK 8,,
CX-301,001-017,100,NTRGRESP,Non-Target Response,NON-TARGET,,,,1,2024-03-10,INVESTIGATOR,BASELINE,Y,PRESENT
CX-301,001-017,101,NTRGRESP,Non-Target Response,NON-TARGET,,,,57,2024-05-06,INVESTIGATOR,WEEK 8,,PRESENT
CX-301,001-018,1,LDIAM,Longest Diameter,TARGET,40,40,1,2024-03-15,INVESTIGATOR,BASELINE,Y,
CX-301,001-018,2,LDIAM,Longest Diameter,TARGET,40,40,1,2024-03-15,INVESTIGATOR,BASELINE,Y,
CX-301,001-018,3,LDIAM,Longest Diameter,TARGET,42,42,57,2024-05-11,INVESTIGATOR,WEEK 8,,
CX-301,001-018,4,LDIAM,Longest Diameter,TARGET,38,38,57,2024-05-11,INVESTIGATOR,WEEK 8,,
CX-301,001-018,100,NTRGRESP,Non-Target Response,NON-TARGET,,,,1,2024-03-15,INVESTIGATOR,BASELINE,Y,PRESENT
CX-301,001-018,101,NTRGRESP,Non-Target Response,NON-TARGET,,,,57,2024-05-11,INVESTIGATOR,WEEK 8,,UNEQUIVOCAL PROGRESSION
CX-301,001-019,1,LDIAM,Longest Diameter,TARGET,50,50,1,2024-03-20,INVESTIGATOR,BASELINE,Y,
CX-301,001-019,2,LDIAM,Longest Diameter,TARGET,30,30,1,2024-03-20,INVESTIGATOR,BASELINE,Y,
CX-301,001-019,3,LDIAM,Longest Diameter,TARGET,0,0,57,2024-05-16,INVESTIGATOR,WEEK 8,,
CX-301,001-019,4,LDIAM,Longest Diameter,TARGET,0,0,57,2024-05-16,INVESTIGATOR,WEEK 8,,
CX-301,001-019,5,LDIAM,Longest Diameter,TARGET,0,0,113,2024-07-11,INVESTIGATOR,WEEK 16,,
CX-301,001-019,6,LDIAM,Longest Diameter,TARGET,0,0,113,2024-07-11,INVESTIGATOR,WEEK 16,,
CX-301,001-019,100,NTRGRESP,Non-Target Response,NON-TARGET,,,,1,2024-03-20,INVESTIGATOR,BASELINE,Y,PRESENT
CX-301,001-019,101,NTRGRESP,Non-Target Response,NON-TARGET,,,,57,2024-05-16,INVESTIGATOR,WEEK 8,,ABSENT
CX-301,001-019,102,NTRGRESP,Non-Target Response,NON-TARGET,,,,113,2024-07-11,INVESTIGATOR,WEEK 16,,ABSENT
CX-301,001-021,1,LDIAM,Longest Diameter,TARGET,60,60,1,2024-03-25,INVESTIGATOR,BASELINE,Y,
CX-301,001-021,2,LDIAM,Longest Diameter,TARGET,40,40,1,2024-03-25,INVESTIGATOR,BASELINE,Y,
CX-301,001-021,3,LDIAM,Longest Diameter,TARGET,35,35,57,2024-05-21,INVESTIGATOR,WEEK 8,,
CX-301,001-021,4,LDIAM,Longest Diameter,TARGET,35,35,57,2024-05-21,INVESTIGATOR,WEEK 8,,
CX-301,001-021,200,LDIAM,Longest Diameter,NEW,15,15,57,2024-05-21,INVESTIGATOR,WEEK 8,,
CX-301,001-022,1,LDIAM,Longest Diameter,TARGET,50,50,1,2024-04-01,INVESTIGATOR,BASELINE,Y,
CX-301,001-022,2,LDIAM,Longest Diameter,TARGET,30,30,1,2024-04-01,INVESTIGATOR,BASELINE,Y,
CX-301,001-022,3,LDIAM,Longest Diameter,TARGET,0,0,57,2024-05-28,INVESTIGATOR,WEEK 8,,
CX-301,001-022,4,LDIAM,Longest Diameter,TARGET,0,0,57,2024-05-28,INVESTIGATOR,WEEK 8,,
CX-301,001-022,5,LDIAM,Longest Diameter,TARGET,0,0,113,2024-07-23,INVESTIGATOR,WEEK 16,,
CX-301,001-022,6,LDIAM,Longest Diameter,TARGET,0,0,113,2024-07-23,INVESTIGATOR,WEEK 16,,
CX-301,001-022,200,LDIAM,Longest Diameter,NEW,20,20,113,2024-07-23,INVESTIGATOR,WEEK 16,,
CX-301,001-026,1,LDIAM,Longest Diameter,TARGET,40,40,1,2024-04-05,INVESTIGATOR,BASELINE,Y,
CX-301,001-026,2,LDIAM,Longest Diameter,TARGET,40,40,1,2024-04-05,INVESTIGATOR,BASELINE,Y,
CX-301,001-026,3,LDIAM,Longest Diameter,TARGET,32,32,113,2024-07-27,INVESTIGATOR,WEEK 16,,
CX-301,001-026,4,LDIAM,Longest Diameter,TARGET,28,28,113,2024-07-27,INVESTIGATOR,WEEK 16,,
CX-301,001-027,1,LDIAM,Longest Diameter,TARGET,50,50,1,2024-04-10,INVESTIGATOR,BASELINE,Y,
CX-301,001-027,2,LDIAM,Longest Diameter,TARGET,50,50,1,2024-04-10,INVESTIGATOR,BASELINE,Y,
CX-301,001-027,3,LDIAM,Longest Diameter,TARGET,50,50,1,2024-04-10,INVESTIGATOR,BASELINE (REPEAT),,
CX-301,001-027,4,LDIAM,Longest Diameter,TARGET,50,50,1,2024-04-10,INVESTIGATOR,BASELINE (REPEAT),,
CX-301,001-027,5,LDIAM,Longest Diameter,TARGET,35,35,57,2024-06-06,INVESTIGATOR,WEEK 8,,
CX-301,001-027,6,LDIAM,Longest Diameter,TARGET,35,35,57,2024-06-06,INVESTIGATOR,WEEK 8,,
