STUDYID,USUBJID,RSSEQ,RSTESTCD,RSTEST,RSCAT,RSORRES,RSSTRESC,RSDY,RSDTC,RSEVAL,VISIT,ABLFL
CX-301,001-001,1,LDIAM,Longest Diameter,TARGET,25,25,1,2024-01-01,INVESTIGATOR,BASELINE,Y
CX-301,001-001,2,LDIAM,Longest Diameter,TARGET,30,30,1,2024-01-01,INVESTIGATOR,BASELINE,Y
CX-301,001-001,3,LDIAM,Longest Diameter,TARGET,15,15,57,2024-02-27,INVESTIGATOR,WEEK 8,
CX-301,001-001,4,LDIAM,Longest Diameter,TARGET,18,18,57,2024-02-27,INVESTIGATOR,WEEK 8,
CX-301,001-001,5,LDIAM,Longest Diameter,TARGET,10,10,113,2024-04-23,INVESTIGATOR,WEEK 16,
CX-301,001-001,6,LDIAM,Longest Diameter,TARGET,12,12,113,2024-04-23,INVESTIGATOR,WEEK 16,
CX-301,001-002,1,LDIAM,Longest Diameter,TARGET,40,40,1,2024-01-05,INVESTIGATOR,BASELINE,Y
CX-301,001-002,2,LDIAM,Longest Diameter,TARGET,35,35,1,2024-01-05,INVESTIGATOR,BASELINE,Y
CX-301,001-002,3,LDIAM,Longest Diameter,TARGET,0,0,56,2024-03-01,INVESTIGATOR,WEEK 8,
CX-301,001-002,4,LDIAM,Longest Diameter,TARGET,0,0,56,2024-03-01,INVESTIGATOR,WEEK 8,
CX-301,001-002,5,LDIAM,Longest Diameter,TARGET,0,0,112,2024-04-26,INVESTIGATOR,WEEK 16,
CX-301,001-002,6,LDIAM,Longest Diameter,TARGET,0,0,112,2024-04-26,INVESTIGATOR,WEEK 16,
CX-301,001-003,1,LDIAM,Longest Diameter,TARGET,50,50,1,2024-01-10,INVESTIGATOR,BASELINE,Y
CX-301,001-003,2,LDIAM,Longest Diameter,TARGET,45,45,1,2024-01-10,INVESTIGATOR,BASELINE,Y
CX-301,001-003,3,LDIAM,Longest Diameter,TARGET,66,66,57,2024-03-07,INVESTIGATOR,WEEK 8,
CX-301,001-003,4,LDIAM,Longest Diameter,TARGET,60,60,57,2024-03-07,INVESTIGATOR,WEEK 8,
